Folder: xrd-deconvolve

Note: README.md
# xrd-deconvolve
Tradução, adaptação e detalhamento do artigo de Chris Ostrouchov.

File: PEAD.csv
/////////////////////////////////////////////////////////////////////////////////
/// Profile Data Ascii Dump (XRD)                                             ///
/////////////////////////////////////////////////////////////////////////////////

  Group     : 2019_03_13_Fernanda
  Data      : PEAD
  File Name : PEAD.RAW

# Profile Datafile
          comment             =
          date & time         = 03-13-19 10:20:50

# Measurement Condition
    X-ray tube
          target              = Cu
          voltage             = 40.0 (kV)
          current             = 40.0 (mA)
    Slits
          divergence slit     = 1.00000 (mm)
          scatter slit        = 1.00000 (mm)
          receiving slit      = 0.30000 (mm)
    Scanning
          drive axis          = Theta-2Theta
          scan range          =   15.000 -   40.000
          scan mode           = Continuous Scan
          scan speed          =   2.0000 (deg/min)
          sampling pitch      =   0.0200 (deg)
          preset time         =   0.60 (sec)

# Data      [ Total No. = 1251 ]
  <2Theta>   <   I   >
    15.0000        74
    15.1000        92
    15.2000       104
    15.3000       100
    15.4000       104
    15.5000        86
    15.6000        90
    15.7000        90
    15.8000       124
    15.9000       106
    16.0000       116
    16.1000       100
    16.2000       134
    16.3000       108
    16.4000       132
    16.5000       130
    16.6000       122
    16.7000       162
    16.8000       154
    16.9000       140
    17.0000       160
    17.1000       150
    17.2000       172
    17.3000       176
    17.4000       174
    17.5000       166
    17.6000       204
    17.7000       194
    17.8000       214
    17.9000       204
    18.0000       222
    18.1000       194
    18.2000       238
    18.3000       244
    18.4000       276
    18.5000       280
    18.6000       248
    18.7000       272
    18.8000       324
    18.9000       288
    19.0000       308
    19.1000       320
    19.2000       346
    19.3000       326
    19.4000       360
    19.5000       392
    19.6000       372
    19.7000       372
    19.8000       384
    19.9000       390
    20.0000       406
    20.1000       486
    20.2000       616
    20.3000       780
    20.4000       938
    20.5000      1142
    20.6000      1126
    20.7000      1066
    20.8000      1054
    20.9000      1140
    21.0000      1270
    21.1000      1522
    21.2000      2020
    21.3000      2594
    21.4000      3486
    21.5000      3584
    21.6000      2414
    21.7000      1264
    21.8000       730
    21.9000       492
    22.0000       392
    22.1000       312
    22.2000       264
    22.3000       256
    22.4000       266
    22.5000       292
    22.6000       302
    22.7000       366
    22.8000       340
    22.9000       374
    23.0000       364
    23.1000       350
    23.2000       382
    23.3000       402
    23.4000       406
    23.5000       472
    23.6000       556
    23.7000       652
    23.8000       730
    23.9000       688
    24.0000       496
    24.1000       324
    24.2000       234
    24.3000       164
    24.4000       148
    24.5000       138
    24.6000       110
    24.7000       116
    24.8000       108
    24.9000        96
    25.0000        74
    25.1000       114
    25.2000        70
    25.3000        88
    25.4000        78
    25.5000        76
    25.6000        66
    25.7000        68
    25.8000        70
    25.9000        70
    26.0000        82
    26.1000        74
    26.2000        78
    26.3000        72
    26.4000        72
    26.5000        64
    26.6000        58
    26.7000        82
    26.8000        84
    26.9000        68
    27.0000        68
    27.1000        74
    27.2000        58
    27.3000        70
    27.4000        68
    27.5000        56
    27.6000        56
    27.7000        60
    27.8000        62
    27.9000        46
    28.0000        54
    28.1000        54
    28.2000        56
    28.3000        48
    28.4000        58
    28.5000        52
    28.6000        58
    28.7000        54
    28.8000        48
    28.9000        58
    29.0000        54
    29.1000        60
    29.2000        64
    29.3000        66
    29.4000        66
    29.5000        76
    29.6000        86
    29.7000        82
    29.8000        92
    29.9000        88
    30.0000        78
    30.1000       112
    30.2000        82
    30.3000        62
    30.4000        56
    30.5000        64
    30.6000        42
    30.7000        58
    30.8000        52
    30.9000        54
    31.0000        46
    31.1000        56
    31.2000        54
    31.3000        58
    31.4000        58
    31.5000        58
    31.6000        56
    31.7000        44
    31.8000        54
    31.9000        48
    32.0000        52
    32.1000        54
    32.2000        44
    32.3000        34
    32.4000        48
    32.5000        44
    32.6000        52
    32.7000        42
    32.8000        50
    32.9000        54
    33.0000        52
    33.1000        46
    33.2000        48
    33.3000        44
    33.4000        42
    33.5000        54
    33.6000        44
    33.7000        54
    33.8000        58
    33.9000        52
    34.0000        60
    34.1000        72
    34.2000        70
    34.3000        76
    34.4000        72
    34.5000        88
    34.6000        70
    34.7000        84
    34.8000        54
    34.9000        70
    35.0000        64
    35.1000        74
    35.2000        66
    35.3000        74
    35.4000        76
    35.5000        76
    35.6000        64
    35.7000        96
    35.8000       118
    35.9000       120
    36.0000       150
    36.1000       174
    36.2000       166
    36.3000       166
    36.4000       140
    36.5000       104
    36.6000        78
    36.7000        70
    36.8000        68
    36.9000        66
    37.0000        64
    37.1000        64
    37.2000        60
    37.3000        60
    37.4000        60
    37.5000        64
    37.6000        60
    37.7000        82
    37.8000        84
    37.9000        76
    38.0000        74
    38.1000        78
    38.2000        72
    38.3000        68
    38.4000        80
    38.5000        94
    38.6000        76
    38.7000        78
    38.8000        92
    38.9000        70
    39.0000        86
    39.1000        86
    39.2000        94
    39.3000       106
    39.4000       118
    39.5000       138
    39.6000       152
    39.7000       140
    39.8000       128
    39.9000       110
    40.0000       110

File: PP.csv
/////////////////////////////////////////////////////////////////////////////////
/// Profile Data Ascii Dump (XRD)                                             ///
/////////////////////////////////////////////////////////////////////////////////

  Group     : 2019_03_13_Fernanda
  Data      : PP
  File Name : PP.RAW

# Profile Datafile
          comment             =
          date & time         = 03-13-19 10:47:29

# Measurement Condition
    X-ray tube
          target              = Cu
          voltage             = 40.0 (kV)
          current             = 40.0 (mA)
    Slits
          divergence slit     = 1.00000 (mm)
          scatter slit        = 1.00000 (mm)
          receiving slit      = 0.30000 (mm)
    Scanning
          drive axis          = Theta-2Theta
          scan range          =   15.000 -   40.000
          scan mode           = Continuous Scan
          scan speed          =   2.0000 (deg/min)
          sampling pitch      =   0.0200 (deg)
          preset time         =   0.60 (sec)

# Data      [ Total No. = 1251 ]
  <2Theta>   <   I   >
    15.0000       306
    15.1000       312
    15.2000       306
    15.3000       330
    15.4000       320
    15.5000       344
    15.6000       366
    15.7000       392
    15.8000       502
    15.9000       596
    16.0000       702
    16.1000       598
    16.2000       516
    16.3000       520
    16.4000       564
    16.5000       648
    16.6000       694
    16.7000       850
    16.8000       926
    16.9000       856
    17.0000       614
    17.1000       442
    17.2000       400
    17.3000       388
    17.4000       376
    17.5000       368
    17.6000       436
    17.7000       408
    17.8000       424
    17.9000       430
    18.0000       482
    18.1000       544
    18.2000       588
    18.3000       648
    18.4000       728
    18.5000       654
    18.6000       532
    18.7000       482
    18.8000       390
    18.9000       370
    19.0000       352
    19.1000       300
    19.2000       328
    19.3000       266
    19.4000       280
    19.5000       298
    19.6000       296
    19.7000       294
    19.8000       342
    19.9000       318
    20.0000       356
    20.1000       378
    20.2000       360
    20.3000       418
    20.4000       410
    20.5000       428
    20.6000       430
    20.7000       488
    20.8000       562
    20.9000       634
    21.0000       644
    21.1000       672
    21.2000       618
    21.3000       552
    21.4000       532
    21.5000       538
    21.6000       606
    21.7000       640
    21.8000       616
    21.9000       530
    22.0000       448
    22.1000       348
    22.2000       272
    22.3000       232
    22.4000       196
    22.5000       176
    22.6000       162
    22.7000       140
    22.8000       166
    22.9000       160
    23.0000       166
    23.1000       148
    23.2000       160
    23.3000       130
    23.4000       146
    23.5000       136
    23.6000       130
    23.7000       152
    23.8000       146
    23.9000       168
    24.0000       160
    24.1000       146
    24.2000       152
    24.3000       158
    24.4000       158
    24.5000       156
    24.6000       144
    24.7000       130
    24.8000       144
    24.9000       168
    25.0000       136
    25.1000       178
    25.2000       184
    25.3000       190
    25.4000       174
    25.5000       158
    25.6000       152
    25.7000       116
    25.8000       102
    25.9000       102
    26.0000       108
    26.1000       120
    26.2000       104
    26.3000        94
    26.4000        96
    26.5000       102
    26.6000        92
    26.7000       126
    26.8000       116
    26.9000       124
    27.0000       108
    27.1000       134
    27.2000       118
    27.3000       104
    27.4000       106
    27.5000       104
    27.6000       110
    27.7000       118
    27.8000       118
    27.9000       120
    28.0000       128
    28.1000       114
    28.2000       142
    28.3000       154
    28.4000       146
    28.5000       128
    28.6000       112
    28.7000       106
    28.8000       124
    28.9000       122
    29.0000       104
    29.1000       108
    29.2000       112
    29.3000        96
    29.4000        98
    29.5000        84
    29.6000        84
    29.7000        70
    29.8000        76
    29.9000        62
    30.0000        76
    30.1000        82
    30.2000        80
    30.3000        84
    30.4000        76
    30.5000        78
    30.6000        80
    30.7000        84
    30.8000        68
    30.9000        68
    31.0000        76
    31.1000        78
    31.2000        84
    31.3000       100
    31.4000        96
    31.5000        82
    31.6000        84
    31.7000       108
    31.8000        96
    31.9000        78
    32.0000        78
    32.1000        78
    32.2000        80
    32.3000        64
    32.4000        80
    32.5000        90
    32.6000        96
    32.7000        70
    32.8000        82
    32.9000        86
    33.0000       102
    33.1000       102
    33.2000       120
    33.3000        86
    33.4000       112
    33.5000        92
    33.6000        94
    33.7000        82
    33.8000        80
    33.9000        72
    34.0000        90
    34.1000        78
    34.2000        90
    34.3000        74
    34.4000        86
    34.5000        86
    34.6000        82
    34.7000        96
    34.8000        94
    34.9000        90
    35.0000        96
    35.1000        84
    35.2000        82
    35.3000        80
    35.4000        88
    35.5000        76
    35.6000        88
    35.7000        82
    35.8000        88
    35.9000        98
    36.0000        90
    36.1000        92
    36.2000        82
    36.3000        90
    36.4000        72
    36.5000        82
    36.6000        88
    36.7000       112
    36.8000        88
    36.9000        94
    37.0000        94
    37.1000       102
    37.2000        80
    37.3000        88
    37.4000        84
    37.5000        90
    37.6000        86
    37.7000        74
    37.8000        98
    37.9000        78
    38.0000        94
    38.1000        68
    38.2000        90
    38.3000        86
    38.4000        78
    38.5000        86
    38.6000        88
    38.7000        94
    38.8000        78
    38.9000        90
    39.0000        88
    39.1000        98
    39.2000        92
    39.3000        92
    39.4000        90
    39.5000        78
    39.6000        98
    39.7000        76
    39.8000        90
    39.9000        90
    40.0000        88